{
  "resourceType": "Bundle",
  "id": "62df28020056b6e23ec675a5",
  "type": "transaction",
  "entry": [ {
    "fullUrl": "https://madie.cms.gov/Patient/1b102c21-830a-41a5-ac27-9aa77ea5adfe",
    "resource": {
      "resourceType": "Patient",
      "id": "1b102c21-830a-41a5-ac27-9aa77ea5adfe",
      "meta": {
        "profile": [ "http://hl7.org/fhir/us/qicore/StructureDefinition/qicore-patient" ]
      },
      "extension": [ {
        "url": "http://hl7.org/fhir/us/core/StructureDefinition/us-core-race",
        "extension": [ {
          "url": "ombCategory",
          "valueCoding": {
            "system": "urn:oid:2.16.840.1.113883.6.238",
            "code": "2028-9",
            "display": "Asian",
            "userSelected": true
          }
        }, {
          "url": "text",
          "valueString": "Asian"
        } ]
      }, {
        "url": "http://hl7.org/fhir/us/core/StructureDefinition/us-core-ethnicity",
        "extension": [ {
          "url": "ombCategory",
          "valueCoding": {
            "system": "urn:oid:2.16.840.1.113883.6.238",
            "code": "2186-5",
            "display": "Not Hispanic or Latino",
            "userSelected": true
          }
        }, {
          "url": "text",
          "valueString": "Not Hispanic or Latino"
        } ]
      } ],
      "identifier": [ {
        "type": {
          "coding": [ {
            "system": "http://terminology.hl7.org/CodeSystem/v2-0203",
            "code": "MR"
          } ]
        },
        "system": "https://bonnie-fhir.healthit.gov/",
        "value": "62df28020056b6e23ec675a5"
      } ],
      "name": [ {
        "family": "DENEXPass",
        "given": [ "HospicePerformedDuringMP" ]
      } ],
      "gender": "female",
      "birthDate": "2000-01-01"
    },
    "request": {
      "method": "PUT",
      "url": "Patient/1b102c21-830a-41a5-ac27-9aa77ea5adfe"
    }
  }, {
    "fullUrl": "https://madie.cms.gov/Encounter/f55a8cf2-da69-49be-ae23-8d7916a0cf11",
    "resource": {
      "resourceType": "Encounter",
      "id": "f55a8cf2-da69-49be-ae23-8d7916a0cf11",
      "meta": {
        "profile": [ "http://hl7.org/fhir/us/qicore/StructureDefinition/qicore-encounter" ]
      },
      "status": "finished",
      "class": {
        "system": "http://terminology.hl7.org/CodeSystem/v3-ActCode",
        "code": "AMB",
        "display": "ambulatory"
      },
      "type": [ {
        "coding": [ {
          "system": "http://snomed.info/sct",
          "version": "2022-03",
          "code": "10197000",
          "display": "Psychiatric interview and evaluation (procedure)",
          "userSelected": true
        } ]
      } ],
      "subject": {
        "reference": "Patient/1b102c21-830a-41a5-ac27-9aa77ea5adfe"
      },
      "period": {
        "start": "2024-01-01T00:00:00.000+00:00",
        "end": "2024-01-01T00:30:00.000+00:00"
      }
    },
    "request": {
      "method": "PUT",
      "url": "Encounter/f55a8cf2-da69-49be-ae23-8d7916a0cf11"
    }
  }, {
    "fullUrl": "https://madie.cms.gov/ServiceRequest/d1d768f4-9d9d-45b0-a93b-e3d880652b45",
    "resource": {
      "resourceType": "ServiceRequest",
      "id": "d1d768f4-9d9d-45b0-a93b-e3d880652b45",
      "meta": {
        "profile": [ "http://hl7.org/fhir/us/qicore/StructureDefinition/qicore-servicerequest" ]
      },
      "status": "active",
      "intent": "order",
      "code": {
        "coding": [ {
          "system": "http://snomed.info/sct",
          "version": "2022-03",
          "code": "385763009",
          "display": "Hospice care (regime/therapy)",
          "userSelected": true
        } ]
      },
      "subject": {
        "reference": "Patient/1b102c21-830a-41a5-ac27-9aa77ea5adfe"
      },
      "authoredOn": "2024-01-01T00:30:00.000+00:00"
    },
    "request": {
      "method": "PUT",
      "url": "ServiceRequest/d1d768f4-9d9d-45b0-a93b-e3d880652b45"
    }
  }, {
    "fullUrl": "https://madie.cms.gov/Procedure/30687d7f-3af0-4ae4-8f3b-5238d3f2c4d9",
    "resource": {
      "resourceType": "Procedure",
      "id": "30687d7f-3af0-4ae4-8f3b-5238d3f2c4d9",
      "meta": {
        "profile": [ "http://hl7.org/fhir/us/qicore/StructureDefinition/qicore-procedure" ]
      },
      "extension": [ {
        "url": "http://hl7.org/fhir/us/qicore/StructureDefinition/qicore-recorded",
        "valueDateTime": "2024-01-01T00:30:00.000+00:00"
      } ],
      "status": "completed",
      "code": {
        "coding": [ {
          "system": "http://snomed.info/sct",
          "version": "2022-03",
          "code": "170935008",
          "display": "Full care by hospice (finding)",
          "userSelected": true
        } ]
      },
      "subject": {
        "reference": "Patient/1b102c21-830a-41a5-ac27-9aa77ea5adfe"
      },
      "performedDateTime": "2024-12-31T20:00:00.000+00:00"
    },
    "request": {
      "method": "PUT",
      "url": "Procedure/30687d7f-3af0-4ae4-8f3b-5238d3f2c4d9"
    }
  }, {
    "fullUrl": "https://madie.cms.gov/Coverage/938cec21-3b34-41dd-8368-3c89bb0b3fdf",
    "resource": {
      "resourceType": "Coverage",
      "id": "938cec21-3b34-41dd-8368-3c89bb0b3fdf",
      "meta": {
        "profile": [ "http://hl7.org/fhir/us/qicore/StructureDefinition/qicore-coverage" ]
      },
      "status": "active",
      "beneficiary": {
        "reference": "Patient/1b102c21-830a-41a5-ac27-9aa77ea5adfe"
      },
      "payor": [ {
        "reference": "Organization/c928ef4a-5cb7-4966-9b54-a5ff52827cc9"
      } ]
    },
    "request": {
      "method": "PUT",
      "url": "Coverage/938cec21-3b34-41dd-8368-3c89bb0b3fdf"
    }
  }, {
    "fullUrl": "https://madie.cms.gov/Organization/c928ef4a-5cb7-4966-9b54-a5ff52827cc9",
    "resource": {
      "resourceType": "Organization",
      "id": "c928ef4a-5cb7-4966-9b54-a5ff52827cc9",
      "meta": {
        "profile": [ "http://hl7.org/fhir/us/qicore/StructureDefinition/qicore-organization" ]
      },
      "identifier": [ {
        "use": "temp",
        "system": "urn:oid:2.16.840.1.113883.4.4",
        "value": "21-3259825"
      } ],
      "active": true,
      "type": [ {
        "coding": [ {
          "system": "http://terminology.hl7.org/CodeSystem/organization-type",
          "code": "pay",
          "display": "Payer"
        } ]
      } ],
      "name": "Blue Cross Blue Shield of Texas",
      "telecom": [ {
        "system": "phone",
        "value": "(+1) 972-766-6900"
      } ],
      "address": [ {
        "use": "billing",
        "type": "postal",
        "line": [ "P.O. Box 660044" ],
        "city": "Dallas",
        "state": "TX",
        "postalCode": "75266-0044",
        "country": "USA"
      } ]
    },
    "request": {
      "method": "PUT",
      "url": "Organization/c928ef4a-5cb7-4966-9b54-a5ff52827cc9"
    }
  }, {
    "fullUrl": "https://madie.cms.gov/MeasureReport/02138e87-dfa5-49a4-98a0-276a751f06c7",
    "resource": {
      "resourceType": "MeasureReport",
      "id": "02138e87-dfa5-49a4-98a0-276a751f06c7",
      "meta": {
        "profile": [ "http://hl7.org/fhir/us/cqfmeasures/StructureDefinition/test-case-cqfm" ]
      },
      "contained": [ {
        "resourceType": "Parameters",
        "id": "6b04fc34-8e2e-4325-a054-6bbbea27d0a9-parameters",
        "parameter": [ {
          "name": "subject",
          "valueString": "1b102c21-830a-41a5-ac27-9aa77ea5adfe"
        } ]
      } ],
      "extension": [ {
        "url": "http://hl7.org/fhir/us/cqfmeasures/StructureDefinition/cqfm-inputParameters",
        "valueReference": {
          "reference": "#6b04fc34-8e2e-4325-a054-6bbbea27d0a9-parameters"
        }
      }, {
        "url": "http://hl7.org/fhir/us/cqfmeasures/StructureDefinition/cqfm-testCaseDescription",
        "valueMarkdown": "Enc first day of MP, hospice ordered day of enc., and hospice performed last day of MP. expected to pass the denex d/t has hospice"
      } ],
      "modifierExtension": [ {
        "url": "http://hl7.org/fhir/us/cqfmeasures/StructureDefinition/cqfm-isTestCase",
        "valueBoolean": true
      } ],
      "status": "complete",
      "type": "individual",
      "measure": "https://madie.cms.gov/Measure/PCSBMIScreenAndFollowUpFHIR",
      "period": {
        "start": "2024-01-01",
        "end": "2024-12-31"
      },
      "group": [ {
        "id": "643465ae7c12bd4a0fdf28c8",
        "population": [ {
          "id": "28070159-E583-468D-A6EB-3A47F9B54660",
          "code": {
            "coding": [ {
              "system": "http://terminology.hl7.org/CodeSystem/measure-population",
              "code": "initial-population",
              "display": "Initial Population"
            } ]
          },
          "count": 1
        }, {
          "id": "13A65BC7-CCB8-4189-869C-6C8E46AD5524",
          "code": {
            "coding": [ {
              "system": "http://terminology.hl7.org/CodeSystem/measure-population",
              "code": "denominator",
              "display": "Denominator"
            } ]
          },
          "count": 1
        }, {
          "id": "58F3DCCC-F1A5-4B4B-AC6D-320EDC5BF9D7",
          "code": {
            "coding": [ {
              "system": "http://terminology.hl7.org/CodeSystem/measure-population",
              "code": "denominator-exclusion",
              "display": "Denominator Exclusion"
            } ]
          },
          "count": 1
        }, {
          "id": "50B4FD1B-95FC-404D-BA83-1F54ADD2F00F",
          "code": {
            "coding": [ {
              "system": "http://terminology.hl7.org/CodeSystem/measure-population",
              "code": "denominator-exception",
              "display": "Denominator Exception"
            } ]
          },
          "count": 0
        }, {
          "id": "CD0AB099-6BB7-417D-A627-710CA99C825D",
          "code": {
            "coding": [ {
              "system": "http://terminology.hl7.org/CodeSystem/measure-population",
              "code": "numerator",
              "display": "Numerator"
            } ]
          },
          "count": 0
        } ],
        "measureScore": {
          "value": 1.0
        }
      } ],
      "evaluatedResource": [ {
        "reference": "Patient/1b102c21-830a-41a5-ac27-9aa77ea5adfe"
      }, {
        "reference": "Encounter/f55a8cf2-da69-49be-ae23-8d7916a0cf11"
      }, {
        "reference": "ServiceRequest/d1d768f4-9d9d-45b0-a93b-e3d880652b45"
      }, {
        "reference": "Procedure/30687d7f-3af0-4ae4-8f3b-5238d3f2c4d9"
      }, {
        "reference": "Coverage/938cec21-3b34-41dd-8368-3c89bb0b3fdf"
      }, {
        "reference": "Organization/c928ef4a-5cb7-4966-9b54-a5ff52827cc9"
      } ]
    },
    "request": {
      "method": "PUT",
      "url": "MeasureReport/02138e87-dfa5-49a4-98a0-276a751f06c7"
    }
  } ]
}